frame,acc_x,acc_y,acc_z,gyr_x,gyr_y,gyr_z
0,0.2094068916086394,0.35970335742522,0.686982044198895,0.5115052063058596,0.8617571689046062,0.4265644687847141
1,0.20642322261254392,0.3583461691745926,0.6909746201657458,0.5124486878282077,0.8634296732464675,0.4261234785460229
2,0.20594816916903155,0.36097437499326795,0.6896581491712708,0.5127107622141779,0.8637171365349458,0.4244645142846567
3,0.2101861459414184,0.36281627333340516,0.6911095044889503,0.5133746942916105,0.8642920631119025,0.42452750404786077
4,0.20723581402907834,0.36228847790260565,0.6913253194060773,0.5135144604310334,0.8653635031823027,0.4236455235704784
5,0.20587732786605165,0.3707493617983822,0.6910663415055249,0.5138464350527846,0.8666440191332031,0.422280566556298
6,0.2066940864180554,0.3768405519232219,0.6833347720994475,0.5165895043251028,0.8678722596950947,0.4208945854449329
7,0.20567730536352014,0.3785047232305389,0.6824121633287293,0.5193675237153115,0.8688391746630124,0.4209995821383314
8,0.2045230088384944,0.36710865045939745,0.6602857389502762,0.5224775177272715,0.8677154848791382,0.4209155889100301
9,0.20794839419434694,0.34484430034791413,0.6559370683701657,0.5340263859313895,0.885982344167091,0.40552289622185833
10,0.2335846116021386,0.32179364275789274,0.6495273653314917,0.5199965056748537,0.895886707421272,0.3849643001958006
11,0.24860713496935075,0.3214866597012032,0.6563794889502762,0.5014763764067959,0.8897193412417745,0.36125578273570047
12,0.2460651823330125,0.3228869332931204,0.6691125690607734,0.4955184799349158,0.890999857192675,0.37108358877748954
13,0.24114796247911227,0.3251650707138164,0.6835991453729282,0.5074866808894419,0.8975592117631334,0.41096178270974526
14,0.2681760031336859,0.31289651978155736,0.6760941816298341,0.5297807362468925,0.8860607315750693,0.4382822359397636
15,0.2816400178353399,0.3224937795538514,0.6838635186464089,0.5255874945731616,0.8755291920304576,0.46831164099722056
16,0.3132435732353223,0.3323549370415451,0.6644131992403315,0.5355464414025138,0.8743532268575748,0.4805543916192625
17,0.3501768949006764,0.3318271416107455,0.6624384927486188,0.545435487996085,0.8727329722291872,0.4781394470390096
18,0.34196763802594465,0.32950591884875974,0.6581329851519336,0.513182502975352,0.8681074732700992,0.4637547349867159
19,0.3351543715334642,0.3406811792457911,0.680086757596685,0.495483546983095,0.8752940041309881,0.45056699349199997
20,0.31544798789863865,0.35225497904975284,0.6956739899861879,0.5004630118147363,0.8755814674194663,0.4323813557480882
21,0.2840486221366571,0.36386647852734305,0.7074412983425414,0.49254826922844847,0.8717399452423001,0.4125787400409171
22,0.2578998470661283,0.40125378343153206,0.7100742403314917,0.4784485059022011,0.8626456964645455,0.4037799181001033
23,0.18600842594791922,0.4219401329182779,0.7293950707872928,0.4857691994807676,0.8484555472532286,0.42320453333178726
24,0.14209098523583916,0.4153211473626386,0.7296594440607734,0.48669520594417043,0.8437777729051318,0.4381352323161707
25,0.09305213503185777,0.44678960350714686,0.7486727382596685,0.48769111264335446,0.8422620690547619,0.4559218867515857
26,0.08467619273834975,0.4882107734895895,0.7378712016574586,0.4617105064912377,0.8492656617296549,0.4727635503143267
27,0.008238426823017618,0.48461853315955583,0.7553899775552486,0.4659037309988989,0.8266868787900619,0.5070138678369956
28,0.01773532855779615,0.31306886114671645,0.8972127503453039,0.4865030146279118,0.7934458935088704,0.47818143333711655
29,0.0,0.48005687265050256,0.5938525120856354,0.494382807096309,0.8143260344120976,0.4244855177497539
30,0.004779704383409839,0.399147987375995,0.5390139416436464,0.6050668435595815,0.8682903857805601,0.4246535042063565
31,0.019327174307109587,0.40918687189650904,0.6713516488259669,0.569878580784202,0.8648408519943548,0.48679126535623063
32,0.053443512395144444,0.4766854446945788,0.6932568629143646,0.6999039197913333,0.8525584206999037,0.46119278678287007
33,0.09213536522858826,0.41102877023664625,0.8039968922651933,1.0,0.8179062309952899,0.45623687683178116
34,0.13340667491759495,0.42790206701924843,0.7439302054558011,0.8608893297822228,0.8134375325276931,0.39080219062427185
35,0.16558946214782505,0.3654875644933703,0.8129100483425414,0.7674849337268688,0.7796738703830188,0.3063628759586725
36,0.16145566376217327,0.33923782031258415,0.7849835980662984,0.698890538033204,0.7511890468579024,0.24000420234358644
37,0.1634225517037334,0.24754682838031433,0.812775164019337,0.6498646034836169,0.7088799504934606,0.16144476440456523
38,0.15826780512807698,0.1963991426017084,0.8677486187845304,0.5790687623485195,0.6801599390688746,0.10079798105945476
39,0.1622349180949524,0.11124096554249836,0.9171000949585636,0.5273172164194898,0.6576595435372597,0.05285594204017464
40,0.23205944002033568,0.07516776354764704,0.9525800673342542,0.45433738773583543,0.6517012532382626,0.03141536553673452
41,0.29534155925875,0.0,0.9331243525552486,0.3942343085772344,0.6531908193941282,0.0
42,0.38527667695949136,0.06736931677420058,0.9232022617403315,0.32053813980538104,0.6768149303851518,0.001280963785879109
43,0.46998620678159636,0.06438565688988467,0.888822945441989,0.2732069598181619,0.7046464142497985,0.006866853897359024
44,0.5274343363628409,0.04435635885780766,0.8552367489640884,0.24184503114294115,0.7298123667856966,0.02648045905074281
45,0.605909831522713,0.0399293400402849,0.7958282976519337,0.15749105051248188,0.7696911197208597,0.04523308719184143
46,0.6623370129139529,0.06736931677420058,0.6757380870165746,0.07277016230845047,0.8213296527625258,0.048341022327776866
47,0.7135094364782706,0.19718545008024654,0.6633125431629834,0.0,0.8757382679109578,0.05411592299304409
48,0.7671279685631301,0.37144949859434084,0.5801536602209945,0.015357744411401586,0.923613666183436,0.08198236315515206
49,0.8179253499352012,0.45200831547086895,0.5663684823895028,0.09069625973485669,0.944337006595172,0.1431331471342453
50,0.842682301758948,0.5440493758011181,0.5679493266574586,0.14381061993664251,0.9665499388383083,0.1802183960107611
51,0.8554670733790886,0.7275121446805761,0.6317873791436464,0.16040885320818316,1.0,0.2127677423418694
52,0.875069278627179,0.7902767156044335,0.7258826830110497,0.2069013848606561,0.9965504662137946,0.25503989802136834
53,0.8753068053489352,0.8911287282284385,0.8134333995165746,0.2676334459787993,0.9912716275942367,0.2897102023176313
54,0.8893792218291224,0.9367507189866328,0.8855749309392265,0.3530182662602634,0.9800083609811772,0.3388492325265767
55,0.9330924729032016,0.9984219993752625,0.9509075017265193,0.42798987401014643,0.978414269722829,0.38133138159287266
56,0.9685297929350385,0.9989874944796907,0.969392049378453,0.5142308176853021,0.9927089440366285,0.4278874395007876
57,1.0,1.0,1.0,0.6058705417764372,0.9967856797887992,0.47116757581616464
58,0.97863926358382,0.9424918407134932,0.9600418680939227,0.6775574392570469,0.9484660177363513,0.536623265488771
59,0.9772807774207933,0.8850321524359375,0.9081006129143647,0.7089717931091035,0.8401975763219395,0.6184166387222234
60,0.9875569334883508,0.8241579508611684,0.9189453125,0.7669957350728192,0.6908744167994818,0.7103947943757671
61,0.9180699495359895,0.6960436885360679,0.8502298428867403,0.7909321369818715,0.4561751997851881,0.8317513714612798
62,0.4540135765273594,0.29155311884014273,0.4556338484116022,0.6839346684793349,0.08717922463068428,1.0
63,0.19380513641117966,0.31009058693006175,0.10471879316298342,0.15008299880525877,0.0,0.971713573064298
64,0.618657098923629,0.4825989077865983,0.25742942852209943,0.5266882172938779,0.559556790971003,0.5072658475218995
65,0.6583365628633222,0.48948179105763745,0.020637301450276306,0.5978335081096718,0.674776575346834,0.28273835172687367
66,0.6299166989619666,0.5159954329538233,0.0,0.459701235199994,0.6832174844641189,0.3311423844499422
67,0.6225908748067491,0.6007604562737643,0.009528228591160107,0.5107713911587154,0.7345685542173066,0.38313734947783173
68,0.6198113954486547,0.5012279322267582,0.031174464779005494,0.5274569825589127,0.7737939674919998,0.40888283167478506
69,0.6192363307538766,0.5193722465774082,0.06296400207182322,0.5150694660200483,0.8053101987178561,0.4158546822655426
70,0.6239826980535311,0.5016210859660273,0.10156249999999999,0.5246090800989925,0.831051077830711,0.4180176471608916
71,0.6198780696161652,0.4961007766132768,0.1588613604972376,0.5414169797457372,0.8427847202427098,0.4178286366071043
72,0.6222199997499719,0.46401835435538946,0.1774753970994475,0.5435135919995677,0.8394397115589871,0.41486770509476184
73,0.6119438436824144,0.45235838386884825,0.18208844095303867,0.5167991707003067,0.8316521164266371,0.4074548436332256
74,0.5858325728311102,0.45630069259686123,0.16329635704419887,0.5038001300947756,0.8194742102346686,0.3973330509763382
75,0.5745729727927726,0.44985943407404216,0.18397682147790057,0.5112081818019988,0.8246746614462483,0.3782654327550441
76,0.5564959391264852,0.4456532276306294,0.1943359375,0.5138813680046055,0.8257199638221442,0.35548088207043327
77,0.5405941501752282,0.4313650513254128,0.20162508632596682,0.5337643115454196,0.8188208962497338,0.33347333580189376
78,0.5340475803527898,0.41304300994194254,0.20355662983425413,0.5475321174159853,0.8011028258442334,0.3318983647688289
79,0.5254007742537703,0.40169002251209085,0.2173903660220994,0.5288722048424349,0.784247119628633,0.3410541837200326
80,0.5343517812420565,0.3881073686704941,0.20632445614640885,0.5394950665831503,0.7578006768173695,0.3494120154221553
81,0.5228546544819627,0.3905147621150594,0.24197708045580107,0.5728837244424902,0.7392463285654036,0.3639227276329447
82,0.5043400715913874,0.37504173892437453,0.23047414537292815,0.6073731221886162,0.7198296161235375,0.3935951356800118
83,0.4896550861971972,0.339280905653874,0.2703405559392265,0.6584782110991583,0.7327131116894496,0.4335573228405688
84,0.4904385076654458,0.2893611521020262,0.2327132251381215,0.6938761230836722,0.737364774018577,0.47171356274825427
85,0.443504060873515,0.21874966339577123,0.2769714692679558,0.7415742106444635,0.7231484871127558,0.525577485424307
86,0.3906647831214346,0.155990478139575,0.22524602900552484,0.7084825772889841,0.7122249591771832,0.5853422882920352
87,0.34139257333116646,0.08691390471676784,0.41448873446132595,0.7369966035042848,0.7459886213218575,0.6306593893442655
88,0.31436453267659287,0.0792447139671906,0.412292817679558,0.733956509728106,0.7308576948371274,0.632633343685827
89,0.29845857658986646,0.07516776354764704,0.4479886049723757,0.7452433035462541,0.7390634160549426,0.615581686736289
90,0.29493317998274815,0.13442626482405032,0.5254445787292817,0.7415916857034087,0.7244290030636561,0.6106047939521905
91,0.23504310901643105,0.16528075485517946,0.6111500776933702,0.7933781817503289,0.7318246098050452,0.6608987877885193
92,0.15968879832314473,0.18553086526136647,0.7030494647790054,0.8217349667672614,0.8146657730895848,0.6979210469018311
93,0.16396427931475632,0.19569900580574978,0.7262765452348066,0.8060801978519994,0.8340563478369465,0.639017221046388
94,0.15948877582061324,0.17553506608214228,0.7112180593922652,0.6338254691019071,0.8015993393376769,0.5556488974119583
95,0.1913298579423519,0.2667898189338533,0.6589692679558011,0.6118983213180286,0.8378978700141128,0.44151617123419473
