frame,acc_x,acc_y,acc_z,gyr_x,gyr_y,gyr_z
0,0.21524489458358498,0.43250693503925863,0.5949364351032501,0.6131978980621287,0.7241206361825985,0.37950327449862187
1,0.21612192222918886,0.4301335621061616,0.5946156369285557,0.6130474107036877,0.7231775647208593,0.37813558967201355
2,0.21981467021067894,0.43038178643127456,0.5959925459480307,0.6129571153315126,0.7220338217201637,0.37752944846830894
3,0.22003392712207995,0.42385827697479866,0.591829378624749,0.608126409026237,0.7185424444849157,0.37662801670918816
4,0.2195338674995865,0.4138291432776933,0.5831462010647616,0.6000601949433764,0.7168368842608023,0.376208382840464
5,0.2185029753547538,0.400786479177463,0.5773970652373727,0.5847705137275876,0.7176996989355202,0.3712349557074093
6,0.24654862695167498,0.39501199750904714,0.5669549044273752,0.568547775404138,0.7200272837590189,0.35625252555653636
7,0.24141724590239608,0.3985568150641682,0.5736123676707529,0.5670880421130401,0.7206292589473504,0.35089055420057536
8,0.22038012224534465,0.3890589685190588,0.5854062061831145,0.5740857782083069,0.7344342543143002,0.37948772967571287
9,0.223384326592786,0.39309587991168443,0.5847898411508363,0.5806170005352962,0.7465738277077815,0.40586242303384834
10,0.2529340036696683,0.4047232298774991,0.5951130543230257,0.6106847236908385,0.7465136400460826,0.40262969539736276
11,0.2689936107766695,0.4103931960406043,0.5935018545018076,0.6022573429048301,0.7262676383067321,0.39563582303523176
12,0.29726236589747235,0.4243547256250245,0.5871940252241081,0.5529571194714674,0.7044565207919884,0.4035466719793924
13,0.30436705914936013,0.4426057457399045,0.578099937642602,0.5373814856606455,0.6984168377832315,0.40970127660407496
14,0.3388634798764468,0.47063767522677685,0.5855503851380333,0.5708803590310779,0.7139675316249395,0.397656268264308
15,0.34271393896964636,0.47694779885991007,0.5752560077568277,0.6149134657767973,0.7217529131084548,0.37490286203552803
16,0.3621239455473537,0.49342641019722944,0.5720588394315024,0.6286380814219114,0.7238999152325883,0.3751981525909441
17,0.3393327665990945,0.4991312148621049,0.5730248384294587,0.6290142998180135,0.7262676383067321,0.3911752834383914
18,0.28020263954548424,0.48563129542614014,0.5710315643777056,0.6254176105517276,0.7245420089572961,0.40519411780847137
19,0.20438206093803488,0.4969363892505802,0.5866353317737976,0.6144770553944292,0.7385276067378796,0.4091262250461883
20,0.13708172897537788,0.49246835139854805,0.6040016868937725,0.6145974393669608,0.7412364260854313,0.40996549278363664
21,0.07603598890636962,0.5318445680243522,0.6134165726499731,0.6028592923385937,0.7388486536002336,0.39753194022096344
22,0.03859690963153294,0.5306731234023281,0.6298746003539594,0.595425131075406,0.7297991340783566,0.40387305218062647
23,0.0026926287365031582,0.5626766420910069,0.6594997711159091,0.5772611087851794,0.7170375360854899,0.40932827720407766
24,0.0,0.5465159320823408,0.700331251148926,0.6238525301954999,0.6996408178566798,0.3898386729876375
25,0.04717485546353599,0.5725272284665398,0.5696222150933739,0.5818811209601951,0.6852539164267211,0.38948120314058565
26,0.055533544384138156,0.5072137472727986,0.5765752451943352,0.6098419915264588,0.6887653825015602,0.4011221224345374
27,0.08571021929537753,0.5046966655198993,0.5831462010647616,0.6011587615313267,0.6643658209626627,0.4023033151961287
28,0.12111444056791384,0.515683858015686,0.5856693327758413,0.5743867529251887,0.6587876489792485,0.4059867510771929
29,0.11992583731137178,0.5334035909785699,0.5998961911524584,0.6153348392517636,0.656279461742116,0.39594665841355675
30,0.10918994187768542,0.5627811575963176,0.6078728918333436,0.6165989448911096,0.67377650588327,0.3992104604258967
31,0.13188495551392665,0.5313132808723561,0.6408754546142672,0.6469074507772677,0.6720107579974578,0.3864816173078074
32,0.12978470509945414,0.6123955389298483,0.6411385812069941,0.59518434834479,0.6907919895880275,0.371157246862828
33,0.14697136966330593,0.5888316472950081,0.6463866951660401,0.632294962674463,0.7088508509525995,0.3564079432456989
34,0.16706991987506198,0.6117248977707714,0.6487043718663605,0.6178329619300991,0.7222144241337974,0.35384352083459025
35,0.18863787605445265,0.5756104358732053,0.6345676253365677,0.6565086566159998,0.7427212653595345,0.3381150613437956
36,0.20544757259519403,0.5516546110934499,0.6363554443775614,0.6435064039482868,0.7447478724460017,0.3296757953104751
37,0.20695159807515512,0.5315223118829774,0.6314858001751774,0.6246501220665686,0.7491020643559677,0.3292561614417509
38,0.2282041320311268,0.5045921500145887,0.6314281285932098,0.6198645560546042,0.7587134011012627,0.33290852294696066
39,0.2490835445764687,0.48750821970901137,0.6198109093006239,0.6134085774068352,0.7661576665971016,0.32938048948509546
40,0.27221707203551193,0.4709947698699217,0.6178176352488709,0.6155605702894249,0.7701105548576924,0.32178047591925985
41,0.2730325538814243,0.4519642382779329,0.6230693536817898,0.614582402459559,0.7776150277294986,0.31242423330390967
42,0.28458393116102304,0.4529919740801547,0.626558484390826,0.622001512029792,0.7744647467676584,0.3101551014482171
43,0.29335036100458134,0.428078090501718,0.6181095976325816,0.6246952623598796,0.7811264740900692,0.32720462656685667
44,0.3071212336855548,0.3976684332690273,0.6118630444107226,0.6365989484396422,0.7810462173030479,0.33607907129181036
45,0.27966796041066433,0.3448619742107991,0.5812682701769436,0.6241535049123818,0.7907578602464181,0.32865002023804624
46,0.22723478568598562,0.2864944193074977,0.5683029776558665,0.6698720907724133,0.8291429998516305,0.2814180378368625
47,0.23117756347872245,0.23262538594527746,0.5299657935429455,0.7398946659461569,0.8635953203215745,0.21489850337712807
48,0.19248833514765223,0.09299702566291142,0.4647860924980085,0.7262753973661726,0.899111107290924,0.13485747726061928
49,0.21408706422688858,0.031189168709799642,0.4261821773184877,0.6422573352163425,0.9552741996489994,0.06462341727400273
50,0.27947947639910914,0.006131576311560665,0.4570112423540098,0.5671482340993059,1.0,0.02631251406649956
51,0.3578965184310437,0.004324329032229966,0.48772496422559686,0.5125056502990792,0.9987760002122833,0.0027509144761255124
52,0.4605125995791806,0.0834251473015403,0.5064105567830791,0.4232806634478715,0.9710054761900725,0.0
53,0.5562701706741958,0.17787232560063754,0.5309317925409017,0.3524905997889688,0.9507594744507222,0.023623763612046413
54,0.6498351726552012,0.2981566077750826,0.5172636276145952,0.3362377728651628,0.9340449881972646,0.07317148179772245
55,0.71313118102543,0.4050759697079227,0.5168527175930765,0.30541761291741615,0.9344663609719625,0.12433557143662309
56,0.7464389984959745,0.5178438451254403,0.5448666885338082,0.3415199412457609,0.9329012649108377,0.16786857313383372
57,0.7741423015821117,0.6008814140947868,0.5459804709605562,0.3739804400145088,0.9085819798732302,0.21965434879934798
58,0.8072962545534277,0.6528343298596443,0.556628086781313,0.3906546256277281,0.8785239895638971,0.26130676286377236
59,0.8356573283737677,0.6923499004925293,0.5899802835279149,0.42641083894588,0.8774605230644916,0.29235957752958286
60,0.8775700179636804,0.716623626600938,0.6798866753414338,0.4798344721856247,0.8811726212497497,0.3063628670767538
61,0.8904677096115307,0.7491584324416128,0.7506100572030004,0.47410082694415095,0.8488673029039394,0.29268595773081685
62,0.9470975385526736,0.8414064303164642,0.7910306272144986,0.5185252037789272,0.8200734309186996,0.27577632074839437
63,0.9653458681612038,0.9769282022026642,0.7986576939297055,0.5887434213899757,0.8092180449746339,0.2905256243655235
64,0.9761163831072166,1.0,0.82992650477773,0.6740857811654175,0.8633344611209195,0.3415498411381706
65,1.0,0.9598834652115786,0.9258451590113649,0.8043792383157315,0.916848921793142,0.39981660162960136
66,0.9784935896203009,0.9112227878640079,0.9645968576196775,0.9094206121372713,0.916949247705486,0.48394516794295317
67,0.8852709361500795,0.8180167311904751,1.0,0.9968547728090369,0.793607163471227,0.6311895785674824
68,0.6751612692282541,0.6734587229076213,0.9047553823806108,1.0,0.5206172017007421,0.8158434606403939
69,0.23343167839242368,0.3140299001441443,0.6464479712218806,0.8580737428864488,0.19329012254823005,1.0
70,0.10295842965892088,0.0,0.2784888603734956,0.2500075258464774,0.0,0.980463761314833
71,0.44229119625801533,0.6670092452674072,0.42155042839171974,0.0,0.34620863665542545,0.5126822162843442
72,0.4992018279102508,0.7524550256716209,0.10873976779979308,0.7533032403958815,0.49830447433854785,0.27187528788653187
73,0.5076220626305443,0.3589323741132513,0.0,0.7516027095886145,0.5211188509767296,0.3219358936084224
74,0.4885582511761018,0.6239488570794013,0.08653260426841788,0.4768698357390118,0.5870939319047874,0.32224674425671096
75,0.5019252295465998,0.6310733306914137,0.15845988040355685,0.5976222790368597,0.6412504665874494,0.36082184837381226
76,0.5144151802714939,0.5276987863136945,0.1882328345942984,0.6489240079943711,0.6627204681145168,0.37397034063058937
77,0.5197388919448088,0.5126703276125609,0.22809471115548619,0.6096162604887975,0.6593494859169349,0.3963352026364631
78,0.5041485715604553,0.5170991721501016,0.23941996806436144,0.6031301784551192,0.6609747696397584,0.40426159640353265
79,0.4920009693463452,0.531452634879437,0.2575180313805495,0.643837482051078,0.6730742244968634,0.3943147574073868
80,0.4839269297493163,0.49353528051526147,0.28145173789707784,0.6790970634294902,0.67136866427275,0.386916780729477
81,0.4755066950290227,0.4907699744372493,0.3222255463481273,0.6823927779788942,0.6624596089138618,0.3876161756006719
82,0.4414449415122572,0.46174514764992536,0.3062685405124841,0.6754100787910292,0.6465477496734233,0.3942059589169876
83,0.4425412260692621,0.44299767888481956,0.29644274473476473,0.6935440272664524,0.6310371743680917,0.4089241881582624
84,0.4183768064653863,0.40893868859169713,0.3062685405124841,0.7040331055628751,0.6110319627040737,0.4357495897609764
85,0.38287641988083193,0.37080794840417886,0.30829425482909384,0.7037772711393043,0.5967253180611364,0.47245966633816394
86,0.3316010755128496,0.34858533908749256,0.32738715293422194,0.7300225739908993,0.5968055748481578,0.48887196060728094
87,0.31936115459920217,0.29121068148464274,0.3864680841860918,0.7698871306369257,0.6027449516588393,0.49529078141152516
88,0.26739726659717117,0.28805344226171553,0.43122844074064726,0.7774416906581979,0.5911471460777221,0.500901424124139
