frame,acc_x,acc_y,acc_z,gyr_x,gyr_y,gyr_z
0,0.18302009284929757,0.3974622052849785,0.6719654910732116,0.5258286011757171,0.7011310786856881,0.4214634349340384
1,0.18345289960108283,0.39963461618995777,0.6686770246701549,0.5246319972735248,0.6978074426028036,0.42111105954463773
2,0.18282002180366091,0.3888981950667952,0.6656060142100801,0.530615016784486,0.697060258591939,0.4228201044181271
3,0.18391837101338032,0.38783554587713054,0.6637642955093129,0.5274541670803673,0.6947672185260728,0.4210934373130396
4,0.18717258781689827,0.3712624062984213,0.6642702134174755,0.5185812329101743,0.6898977263881865,0.42468771475471884
5,0.20245964893656113,0.3741153314627917,0.6747080986806193,0.5015578432345962,0.6812923648233453,0.42430009490212206
6,0.2231282128755926,0.37054001423845223,0.665898914051648,0.4821412457546338,0.6725581819205871,0.4201067827605897
7,0.1867397810651129,0.3504282005109093,0.6727243679354555,0.47719678100595825,0.6828124768617106,0.42504009014411953
8,0.1662386235112061,0.34408371372335533,0.6861223167489893,0.4835184582318603,0.7052018734657535,0.4444385838310762
9,0.18833626634764183,0.34497885171070825,0.6924773557357333,0.5011062996146751,0.7111792442979344,0.4526842475719966
10,0.2127245185024887,0.3664883370325392,0.6861223167489893,0.4965682374333299,0.6977301599255271,0.4365100337057204
11,0.2301388656380021,0.37108966037103736,0.6736607598531951,0.4816897021347126,0.688197254351264,0.43823670081080784
12,0.22362634894840216,0.37407345366221373,0.674455139726538,0.48654384041353554,0.6963130998947583,0.4469580955623152
13,0.22980405286775304,0.37543448218099595,0.6810631376673635,0.5227129147065246,0.7198103751930959,0.44838521935151604
14,0.25323278062005694,0.3912433518991583,0.6772021852103332,0.539284738579846,0.7315074994953082,0.431805780711685
15,0.30546765586146923,0.4052985887181206,0.6796563308525604,0.5602140382418139,0.72017109519021,0.39850590826859855
16,0.3414518624981116,0.41467398132250105,0.6652110432116023,0.5197326735774402,0.6958235585597272,0.38270169202332105
17,0.3525823455676097,0.4272373214958751,0.6660409260960445,0.45859296647832093,0.6761136913489851,0.38238456109711644
18,0.31217616051414177,0.43814648854642163,0.6488130899601923,0.40025286975091634,0.674490501989339,0.39707878447939776
19,0.24844740785503427,0.43605783324259817,0.6502953406735809,0.37896233075654456,0.7024708307254964,0.4111563336195878
20,0.1823872150518756,0.43158214330583367,0.6631163655567538,0.4226271045601647,0.7435137798203109,0.43873003674235284
21,0.1274942530612912,0.41305121655010685,0.6648870782353228,0.4768807049084806,0.7636874443494478,0.46147611393925614
22,0.08888462433598876,0.4245100297332385,0.666693293924991,0.5332114147813678,0.7505475159998303,0.47726272526357566
23,0.0,0.4608076133841451,0.6942835714254015,0.5351756605832944,0.741761794436432,0.49946263445542
24,0.0066431753316483835,0.4966340717785503,0.6952244012195284,0.6051431386176803,0.6963903825720348,0.5133287514377135
25,0.002257944657899032,0.48947820260479924,0.6758663844177284,0.6021855012883944,0.6835080968982509,0.5054706902387499
26,0.011195812390522348,0.3626983960802379,0.8060603639946213,0.515194611396095,0.6543941454511626,0.45578518908213084
27,0.03860962872530244,0.4924619958959756,0.6380512397207688,0.5489930373198273,0.6682554884813244,0.44079145700524297
28,0.07183775463123647,0.421829850496252,0.551770046997111,0.5911677127412407,0.6865998596356221,0.43319767734832976
29,0.07655779807523487,0.45190334603626625,0.6808146165896695,0.4813961854723627,0.6913405304355915,0.45678948317681883
30,0.08114309979462096,0.5123958289710625,0.6918294257831743,0.4652533236014991,0.6732538019571274,0.4208115335393911
31,0.034224398051553,0.5358264583944051,0.6986548796669817,0.5172717431030018,0.6659624484154583,0.4430466698837914
32,0.07093947646715373,0.5039626868796852,0.6904891871141822,0.670504831800667,0.6177569418032076,0.456877577024169
33,0.09768775034399968,0.515206876334855,0.7110764956752894,0.6644540674373165,0.6349676649328901,0.41947248628690037
34,0.09160804040618509,0.5130344654298757,0.6661119321182428,0.6689695701835341,0.6955144025369374,0.37875505650288127
35,0.11400374826979383,0.44951631140332515,0.6400039053312209,0.6973268245037435,0.701749416044952,0.3450675815178381
36,0.102342464466974,0.3594633359855941,0.5938810560370652,0.6313781201783922,0.7415814344378747,0.2748735938112661
37,0.07811753561468772,0.3157115038318188,0.60132337473872,0.6050302527127001,0.7852781435956695,0.2193562072553774
38,0.08605913120169208,0.21892143724611587,0.5972050254512211,0.5790887656320027,0.8226109925938488,0.16364501077319027
39,0.09689154924401729,0.13849512123623278,0.5994816560379527,0.5163460742456963,0.8480148439443022,0.10777524882790086
40,0.11600037564359589,0.04805477616315597,0.6020822516009638,0.4258331174992097,0.8693994391753308,0.047535987046378715
41,0.1676350377480983,0.01806503622429758,0.5820008609480191,0.33177549009873714,0.8875634503310713,0.012756141429937388
42,0.21677901948855308,0.0,0.5985763292549249,0.2349182745088854,0.9195115218396972,0.0
43,0.29476589646119233,0.03212027304325981,0.6013943807609182,0.1836674747247816,0.9615850416378459,0.00505664569407604
44,0.38295231367873495,0.060450605134218426,0.5921857872570817,0.14508263319228032,0.9816041154987459,0.017125641266170125
45,0.4748298375341448,0.20490807822773155,0.6174284281485624,0.05698546586764126,1.0,0.051235980567006165
46,0.5767721599098454,0.29283575526613354,0.5652789427203294,0.07974352162675669,0.9965990812398389,0.09516006794010771
47,0.6702135043872721,0.44691988776749453,0.5912094544518557,0.04939943988715765,0.9866281983048691,0.1481931872279535
48,0.73404433411048,0.546348255789606,0.6003825449445931,0.0535085400660448,0.9689279591538394,0.1899149111066607
49,0.7895334261554103,0.6582195653084301,0.6423515419401508,0.10288539833573926,0.9397366997157905,0.23605898420575464
50,0.8376484710897338,0.7724726747351229,0.7165661487664923,0.09523164968520165,0.8978950532631552,0.27120884475383483
51,0.8864290584819915,0.8849355081871101,0.8082260476716682,0.1835771704372645,0.8545590387887907,0.3122081956221426
52,0.8996868275673402,0.9563790359730308,0.877066386192879,0.3038020345460594,0.8328395182046522,0.3474989994017269
53,0.9108499752973503,0.9987646048829516,0.9158534258186772,0.43583491071920544,0.8426300664547489,0.3782440983397382
54,0.9108826399578627,1.0,0.9154540169438121,0.5766729983924905,0.8463916798983402,0.4218334325550371
55,0.92573689432574,0.9933100213576784,0.9443490301021156,0.6778425043537271,0.8453611091950057,0.47019750869076354
56,0.9701281679616843,0.9543741362703632,1.0,0.8114783648140601,0.8231262779455161,0.5309477286354287
57,1.0,0.8457012437706772,0.9854127003146455,0.9814639303247521,0.7124417136604663,0.6051588407888326
58,0.963484992630036,0.7440167092424306,0.8579213874576738,1.0,0.5251333366663017,0.6986098638554509
59,0.7599923238047797,0.5715272833870766,0.7414138186594951,0.9573512215235379,0.30940665357527297,0.8267350337702025
60,0.26582500724747155,0.14415909376439556,0.44678320530059956,0.720762217875076,0.06732280579404903,1.0
61,0.18032934143961324,0.17555697474768633,0.2784856190615667,0.0,0.0,0.9571154338741424
62,0.5400570814942448,0.5960205620000839,0.2677947748443415,0.25467352970378865,0.36642362576755827,0.5268425103412465
63,0.5488275428417438,0.4593575945391349,0.0,0.633839072835166,0.45033881733202624,0.33468999127699534
64,0.5412207600249884,0.4638751622764773,0.03781070682057219,0.4363316175740528,0.4939582184988605,0.37630601638739436
65,0.5390281446881138,0.5268384354453705,0.05850452441497699,0.5097534619749076,0.5644500697075573,0.394171652895562
66,0.5404572235855182,0.48794442815863315,0.0700252515166442,0.519123102999948,0.6103367416099376,0.4023468450207302
67,0.5397263518065598,0.481594706646007,0.10599867751283656,0.5232999258488892,0.6499626559876671,0.407738261183249
68,0.5490602785478925,0.4778885212948617,0.13792476024372813,0.5208163915746522,0.6745935793106197,0.41297109457202547
69,0.5588964244445986,0.47865802588048084,0.169273919044259,0.5312697505969045,0.6862133956218717,0.4140987096666197
70,0.5528820438278083,0.45224360316596174,0.19007424567196105,0.5137270946313514,0.6873470183328028,0.4135349021193226
71,0.5431153103346902,0.47878365928221456,0.23106690986229272,0.48647611774348154,0.6850797475972566,0.3945768776691167
72,0.5190577878675284,0.4781869006239793,0.265735600200592,0.5041994044664044,0.6698271138666463,0.36723224624648626
73,0.48403310563342905,0.4924619958959756,0.2810507116134787,0.4905852179223688,0.6451962158573776,0.33363286510879325
74,0.45795037421451695,0.49906298421206924,0.29217202984028084,0.5292603637423872,0.6326230862063837,0.3133358107167368
75,0.42159869014711343,0.45484526152686466,0.25909209924866755,0.5580917654823163,0.607657237530321,0.3073453598543649
76,0.43953975493338454,0.4323935256920307,0.30546346962051724,0.5963605087350045,0.6365393156318959,0.29621016945056666
77,0.448812435436257,0.4285145944135015,0.2612932859368135,0.5817303268638109,0.6045139614459935,0.31263104262729535
78,0.5304536713036874,0.45173583483395463,0.25403735804342903,0.6400704457735508,0.6003658586749678,0.35771798955818723
79,0.5153013519086369,0.39111248377235236,0.23893970257352454,0.7139889748469175,0.5832581875528817,0.4245819986757706
80,0.49273823765990377,0.3266154361572931,0.2138745767375396,0.7295448477577519,0.5777703327420478,0.48700601903072904
81,0.4056828343125926,0.2258260396163994,0.20542486009594685,0.7637722356839423,0.5373199769898612,0.5382243600554971
82,0.3442446909718962,0.21402173457850002,0.18173103806366575,0.7626885176867302,0.6146136657188801,0.5705728050986897
83,0.3055329851824934,0.13440680095481392,0.2753791055903929,0.7886074231499645,0.7284930447488976,0.6030445711417886
84,0.3409537264253021,0.1513568407387245,0.36833930227707434,0.8980177110864384,0.8049622667897756,0.6082774045305649
85,0.40588290535822924,0.04724339377695886,0.42659530561435743,0.9580059553359564,0.7453945865421064,0.5979703032161143
86,0.39594468239742275,0.04277293856526658,0.42926690719956684,0.8294274455292789,0.5980728186091017,0.5894074739277092
87,0.32337605598722813,0.11259370157879314,0.4995140525355806,0.6827643874849393,0.4959936158888931,0.6005074371789514
88,0.2455892500602255,0.2058869718162403,0.5470747737792511,0.6882055369061267,0.5094169562446642,0.6282396884541787
89,0.16560982879634806,0.18267096612085942,0.6025881695091265,0.775873742228308,0.5815319714993231,0.643902961467952
90,0.16982765308497308,0.21445098203442364,0.643181424824593,0.7576311670330745,0.6310256914907418,0.5995207653158614
91,0.15361373222327937,0.23596570208132675,0.6335734224458912,0.6320780394080724,0.6054672494720514,0.4962912040188935
92,0.08851714690522766,0.41880417940449777,0.4951072412829013,0.6732141157025293,0.6713214818883755,0.4163539398558082
93,0.17574403972022723,0.3161355165626702,0.61100238313962,0.589835641316605,0.7541545387751847,0.4153672679927182
