frame,acc_x,acc_y,acc_z,gyr_x,gyr_y,gyr_z
0,0.21493331897264673,0.4885867901860556,0.6316314147018031,0.6015837606958283,0.6965482156711251,0.32833787470282066
1,0.2190953536767845,0.49096673107581557,0.6248620917917035,0.5970587102887362,0.6942159343110713,0.32609964993895707
2,0.22122637699110273,0.49505511321849327,0.6274626465767242,0.5969880107177841,0.6938978779528929,0.32391007530683447
3,0.22695398297489314,0.47554051152741045,0.6281679485562982,0.5988616622311413,0.6909507320743693,0.3219313550943636
4,0.24858348495397528,0.4807434917067511,0.6238376308157862,0.5775444477747862,0.6824484740054652,0.31755222176530723
5,0.23080444206809267,0.4913001968818663,0.6224270268566385,0.5662318391236908,0.6774022561544834,0.3284189688791816
6,0.2207878631683008,0.45275063609744515,0.6191566322027487,0.5622370615486916,0.692901358303549,0.34175100126369234
7,0.2128984609703464,0.46702571341126387,0.6292554532845795,0.5664792963053404,0.707022306503963,0.32981380783481606
8,0.22194569352499718,0.4433816173548396,0.6346417538771909,0.5907660664080324,0.7237935715910429,0.33354417181779616
9,0.2540302882266732,0.44676652368749226,0.6285816731811878,0.6090253464127019,0.724853710844649,0.3202121394332854
10,0.25778842862033546,0.4497768519914304,0.6264342453662842,0.5946194274744925,0.722245786195925,0.32363434873313174
11,0.25650366005177533,0.4655365373458863,0.619251197831295,0.5897055207438464,0.7233271111527187,0.33669067047912876
12,0.2635468075039716,0.4702598749274826,0.6159492813012231,0.6122070181385298,0.7288397894420248,0.3360094730236215
13,0.2902807642449676,0.48799294696980083,0.6238376308157862,0.6215399346031575,0.7431515547920926,0.32614830007069806
14,0.30780977731960346,0.4974715983061764,0.6053342894969109,0.626259404488709,0.7411373089586507,0.3307545098417161
15,0.3676630675195888,0.5064294948221439,0.6117805131761443,0.6130908061920182,0.7255533806705686,0.32519137604148807
16,0.37614869465205464,0.5340157962295524,0.6086401462615055,0.5921094450892966,0.7060893856273149,0.32692681372487625
17,0.3636895168270063,0.5313023895337416,0.583083785146892,0.5806907783984556,0.687028231418123,0.33725832971365516
18,0.31332197300447356,0.5483639619392179,0.6049520867482033,0.588450520867931,0.697184286724349,0.33502010494979156
19,0.23709750008654873,0.56267558345096,0.6041482789055606,0.5862940537041305,0.718980583959223,0.3471519307760096
20,0.16046528624566775,0.5802990228995081,0.6247360042869753,0.6007176345101017,0.722712246634249,0.36706889314400926
21,0.13780104550927222,0.5705188819302645,0.6281009645694112,0.5998868667931688,0.7053685092666413,0.359835209749633
22,0.1165446649408198,0.5830855179911655,0.6281679485562982,0.5592675059023549,0.6884064061983411,0.34963343806895597
23,0.045109224561389924,0.5838301060238543,0.640993411927878,0.5533460564774432,0.6884276127330952,0.3498929426203487
24,0.0,0.589814218433807,0.6825825873155971,0.5825644299118128,0.6714443239616075,0.3608732279552039
25,0.03462335893895038,0.500778848218242,0.7436365212457446,0.516527018949899,0.6367780557611458,0.3539639212662713
26,0.047424885274782724,0.5879915765623787,0.5771182700794352,0.5835189349028882,0.6760028748395112,0.3557966751483303
27,0.046236282018240586,0.5582171913043081,0.6269779977304251,0.6389153918210687,0.6525528011988817,0.36762034629141466
28,0.09835788113198106,0.5527127214920997,0.6047590152565882,0.5725598241065532,0.6326647379552456,0.3836122963439036
29,0.1165446649408198,0.5799975332666402,0.5997549174126845,0.5873546167349515,0.6453014995332376,0.3752108345006656
30,0.10878220095472921,0.5926738019213111,0.6500677720337915,0.5881323467486942,0.62912391326144,0.36489554053419665
31,0.1252149294723601,0.5994436145866165,0.6353509960912874,0.6273376467539268,0.6461284085676818,0.33218177690678163
32,0.1350468709730775,0.6134583144902312,0.6137703316101375,0.6432460053830664,0.6967814458902872,0.2967270014350275
33,0.14565582819490017,0.5930483799500258,0.5797779283822974,0.6820977728002687,0.7190229761971646,0.27632347400886237
34,0.15548776969561748,0.552749265690023,0.5995973080317741,0.6621239370251778,0.7410312971164468,0.2516056694725029
35,0.15051025314556732,0.5102209553566942,0.5919965956373724,0.6513769596749689,0.775527933870442,0.21350719835508059
36,0.1451557685724067,0.48315997679443434,0.5830483230361871,0.6333828160863458,0.8050419723777178,0.16836966030543488
37,0.13717404767491503,0.41289918826200367,0.5632644054974152,0.6099975132715392,0.8353193003151754,0.11565784013365928
38,0.12443406713877418,0.37416233846322516,0.5418452906316984,0.6036341698198833,0.8689678631631055,0.04922472278268938
39,0.16506583477260742,0.3313005623238455,0.5278338166687682,0.584367364487583,0.890976163250821,0.005092758893994631
40,0.2043512880381892,0.27003878253004615,0.5477792838229733,0.5111888800602706,0.9126664486434912,0.0012975068217746706
41,0.28214133223576654,0.2234951784498865,0.5197523956625899,0.4533708021956082,0.9193452571970407,0.0
42,0.3649704387830856,0.20802784667881763,0.5011860105913505,0.39435076215822057,0.9283351614074565,0.015602685257805369
43,0.42329277721574493,0.21977680631118302,0.49576818812255713,0.3417470859090441,0.9506615178533505,0.028772529289594305
44,0.48417695956056295,0.2192560514907749,0.48274965325936203,0.31251103324027774,0.9713976758346183,0.039444659941315775
45,0.5550161750054814,0.3330866599973506,0.5116394527802295,0.2613037733755558,0.9916037746048664,0.05483650671465839
46,0.6429497363147144,0.48278996679046016,0.5853257785903418,0.225368541268135,1.0,0.08866938272400521
47,0.7270020656309022,0.607620378871972,0.6064257344597151,0.2531728364502884,0.9766559173700081,0.13111455906105277
48,0.7862591308963761,0.716019605962186,0.675462583532972,0.2676671168272117,0.9418836373273427,0.18150706029260383
49,0.8257022952736671,0.7925248843147734,0.6956641659311563,0.291618050942905,0.9039945799596872,0.21790255370644687
50,0.8900945882009009,0.8627856728472041,0.7579356323288362,0.33264396475830454,0.8758799019358172,0.2369923363533385
51,0.9428393385365178,0.9530863859158661,0.8281939541041484,0.420634921048412,0.8523238164529838,0.2616452528004581
52,0.976712608041728,1.0,0.8713198209557433,0.5191784178436339,0.8302942889989476,0.28454650954187954
53,0.9820017002027166,0.9986250245531328,0.8485846677594252,0.6222999853825034,0.8218344439995517,0.3069449792028256
54,0.9737391765941323,0.9924536231288229,0.8854298007817426,0.715204865769892,0.8334746859281997,0.3407129830581215
55,1.0,0.9571747680585438,0.9072350586306899,0.7963375295117742,0.8479136696552259,0.3801576429994373
56,0.9976227934869158,0.9360202454856495,0.9869814651368051,0.9015095235413334,0.8115935833858758,0.4564194892587107
57,0.9257180663848382,0.8669517114104691,1.0,0.9806624950967477,0.6559664075157293,0.5824412894257688
58,0.6235397297370071,0.6842352898183297,0.9187444836716683,1.0,0.3677381028788163,0.7884877438797003
59,0.03290007654758832,0.24416549040029603,0.6109136615811375,0.85564040256624,0.04749384692810747,1.0
60,0.11544838038381491,0.0,0.2218312633967974,0.0,0.0,0.8432107123733779
61,0.4791378972108213,0.9814857957270697,0.3177365716807465,0.16253048126644595,0.36373081774668653,0.30634487592367926
62,0.4857117579403698,0.5360211590905977,0.0,0.9527875003436423,0.46484607524224364,0.21167444447302156
63,0.4654901161292308,0.46955183109271725,0.054060017652250665,0.5762364275623155,0.49164617725859133,0.2740690272226888
64,0.45979328304528616,0.6884378725795178,0.11832130248392383,0.49501536764844944,0.5493596782656205,0.29070974662125393
65,0.4670864603087291,0.5813770767382476,0.1281994704324802,0.6559019927154262,0.5969383513327443,0.3108537694960264
66,0.4615434917240132,0.5395156980170205,0.14920092043878452,0.6157775635545466,0.6236960402795838,0.3202607895650264
67,0.4570352618966107,0.5727115338056671,0.19200762829403611,0.5822285765581793,0.6440293365952233,0.3254184524834498
68,0.45903934699906523,0.5510042802391818,0.23930620350523266,0.606373947518967,0.6566660981732154,0.32609964993895707
69,0.4524962591693624,0.5586968339020524,0.27047345858025473,0.5865945485889705,0.6568357296196817,0.3191903432500245
70,0.4440760244490689,0.5574360590736959,0.2925033097969992,0.5995510308061702,0.6521923526027616,0.30733424399750914
71,0.42648546557474154,0.5520092456820747,0.33409248518471824,0.6236080055949741,0.6529344354981893,0.288779676540524
72,0.4037250595263281,0.5407079524742706,0.3289938217122684,0.6460034623165469,0.6472945388319253,0.27883740941123974
73,0.4197846666333293,0.5130485626710154,0.33319411171352925,0.676247040312944,0.6538885629095916,0.28478979207096233
74,0.43731367970796514,0.49133674107978975,0.3267794099104779,0.7002509947651926,0.6452166942257878,0.3083073741138402
75,0.42638930026272365,0.4594793365400867,0.3155891438658429,0.7135433129693909,0.6323891154981419,0.346795110025946
76,0.42382360973808414,0.40509243398062245,0.3093044698020426,0.7299289414607032,0.6038291835707018,0.38706694968836985
77,0.39198904484765495,0.38936929282408994,0.31738589080822094,0.7349842646998883,0.590556350939486,0.4111359689434642
78,0.3736137770272609,0.34553909543974093,0.3409524334888413,0.7699649918162339,0.5955389700177721,0.43578888539058375
79,0.30987925483423023,0.31769698464686885,0.3681794540411045,0.7962491507064252,0.6050377477360203,0.4664428346291669
80,0.28079501786751493,0.2527899211102127,0.3740779851216745,0.8262275922867759,0.6137520086577658,0.47331969727347967
81,0.2750366389838788,0.2530868427183402,0.46014058756777204,0.8328384102867166,0.6319862538325136,0.458965868705708
82,0.29588527862937497,0.24580084325736706,0.4797984176018157,0.8350832562558658,0.6279577621656297,0.4313286578851665
83,0.2747558362727863,0.25312338691626357,0.5104219203126971,0.7588468200102328,0.6225723022532819,0.41073049806165957
84,0.2625774611588304,0.2965424620739746,0.5329955238935822,0.6683282021005328,0.6227631194029357,0.38374204065200546
85,0.2551573456835238,0.32475915089556123,0.5488037447988905,0.6434581214625577,0.6373929202796155,0.36971258878967744
86,0.23869384426604703,0.3513770310580002,0.6007163346362376,0.674426409136142,0.6561148324274415,0.3641981210563794
87,0.25162230881374315,0.36520444194725754,0.5914843651494137,0.69326898230946,0.6617547290937055,0.35668872702348936
88,0.2492104827883324,0.3979160671134195,0.6160793090404741,0.6800120225740552,0.6718895778651773,0.3494874717385441
89,0.257849974420027,0.4138676095069731,0.6239676585550372,0.6815321414993822,0.6676066494443774,0.3496496600912659
90,0.23759755970904217,0.4169875704046814,0.5666648278905562,0.6214515384311736,0.6517258921644375,0.350460617790064
91,0.19499247987260013,0.5030126123163083,0.5159382486445594,0.606144169571714,0.721673313915397,0.3455786973805322
92,0.20137785659059343,0.45490674377492435,0.6436845921069223,0.6439707324268888,0.722479016415087,0.35779161738311116
