frame,acc_x,acc_y,acc_z,gyr_x,gyr_y,gyr_z
0,0.6093264708492324,0.7279047323049743,0.36582004331561324,0.6230103483332861,0.37453185817587253,0.6122482534763157
1,0.6026266749489749,0.749611502789001,0.3568418980114196,0.5426030017997552,0.37560197172846554,0.6535122887311253
2,0.612210488951992,0.723782572424059,0.37493601102579244,0.6051029514903263,0.3593722374309845,0.631406601524894
3,0.6147395509805661,0.7232427657729866,0.3693443591258121,0.5799391526144286,0.3566970411631873,0.63189777109085
4,0.6130978791374568,0.7452112606938969,0.38310691080921433,0.5886001939011634,0.32762629468933147,0.6418863871542346
5,0.6358594373946226,0.7445405918243828,0.38824571766095684,0.48735956913510214,0.31496348874891333,0.7253971185576829
6,0.6138299760404649,0.7650532445651285,0.41067139200630043,0.3888108150437957,0.34563949316534404,0.7823808322565035
7,0.6409175614517701,0.7561218981564785,0.43904311872415824,0.34995319210738784,0.37132151751809356,0.8185687515122809
8,0.6692474931227262,0.6967595243158359,0.4975191966922622,0.29377337160453043,0.37845554945959003,0.8102177427243195
9,0.6201526311118997,0.7864819328349664,0.4480015751132112,0.2291666355227345,0.3579453609517369,0.723923288097898
10,0.647417694560298,0.8550373775211424,0.5330970663516439,0.21137641652665318,0.4699482430915295,0.7689537074695099
11,0.6759251042683466,0.801122143523138,0.6381964953731047,0.3645832890131222,0.4230426796049885,0.7389880201603146
12,0.6741281391427812,0.7719725843652364,0.6258712344949793,0.43668066782863246,0.41929736978459825,0.6762730831999093
13,0.6548052178542904,0.7863510706165245,0.5926954124827722,0.6136470449161431,0.34100227602831745,0.5927623517964611
14,0.6447111544946313,0.8720821814731814,0.5356566253199447,0.717696603210857,0.32584265528342937,0.5631242181185422
15,0.6385659774602892,0.6497636301179396,0.5439850364244929,0.7292837558731228,0.3868379011896362,0.5790076733781911
16,0.6768346792084479,0.6542947344314854,0.5529631817286867,0.7654493931417957,0.40752629593344586,0.4548878531015274
17,0.6851539621971781,0.5134542718335432,0.5854892695412482,0.7613529982062246,0.3953986343830095,0.3908628624969754
18,0.6468630756943826,0.7055436507287389,0.5471943295924393,0.6440777522736125,0.4221509475157227,0.3386277111659106
19,0.8030437483361432,0.5026744965894034,0.6455798385508957,0.8107444381057758,0.38416270492183896,0.38742419289240787
20,0.8913168870352295,0.3407979323769486,0.5399881866509154,0.5557116265837552,0.3065811370188672,0.4247583889766941
21,0.7956340402875143,0.6662686274189062,0.474443788147273,0.48747663198900026,0.31942214919524203,0.35270994321545684
22,0.736955364273671,0.5161205895342941,0.4747588107895255,0.5757256948249594,0.3789905186222012,0.3592598896742739
23,0.6681826249001684,0.5414097132481638,0.5236463870840716,0.6884362944064081,0.47280182082265393,0.3080072383560797
24,0.6549826958913832,0.4936122879623117,0.6061626304390627,0.6341292495799594,0.45086493106292397,0.4537415762730188
25,0.5378250066554262,0.5326255868352608,0.5566450088600118,0.6279260682531634,0.5059746400435545,0.5829375125487147
26,0.7328068151566244,0.6041090736590712,0.6450876156723763,0.5445927253370818,0.6490101142990616,0.7511052521841199
27,0.7028352116425592,0.4791029394925817,0.5507186454026383,0.7181648546264493,0.7096485972786138,0.8789912956966274
28,0.5417960777353804,0.5668296991804753,0.5694624926166568,0.6207864990881632,0.7754592665578037,0.8575405548719901
29,0.614007454077558,0.8371910424811476,0.2784800157511321,0.6533239928368574,0.9019082435891752,0.6025871910442074
30,0.461465081196202,0.6083620957584284,0.37590076786769044,0.9363296517564085,1.0,0.5459308700957048
31,0.8949330020409972,0.717386681497718,0.38840322898208296,0.7351357486382245,0.8633850318326803,0.48796465638401376
32,0.8257831218386723,0.879803052361245,0.2974010632014175,0.763108596035755,0.6855716556410685,0.3957753625613277
33,0.9431404738663587,0.7452112606938969,0.1336483559755857,0.7614700610601226,0.5771357018583388,0.5634517717498184
34,0.8969074452036558,0.6510886100796623,0.175940145697972,0.6671348797512656,0.6807562322680852,0.6459800031403963
35,0.8201925636702457,0.6638803919323442,0.14229178972238626,0.7051731777033672,0.709826978741941,0.58539384302137
36,0.8543127163013574,0.6124842556393436,0.2901752313447529,0.6886704201142042,0.6732656126273048,0.5580481021195101
37,0.6250332771319548,0.8101679943729245,0.22144122858830473,0.5481039209961428,0.6210094813777988,0.5557557093434512
38,0.45261336409619324,0.8298791160257145,0.07851939358141363,0.5120552315883877,0.6395576490164225,0.8473881619929675
39,0.15742301890141122,0.5269003647784339,0.11584957668832445,0.6008894937008571,0.6959158530129733,0.7499589753556113
40,0.29933889431182886,0.7199221369800272,0.14197676708013388,0.6118913320936324,0.6277867503926406,0.5508432092790988
41,0.19695625166385627,0.7657075556573373,0.1440637920850561,0.5749063698406531,0.4777956256589644,0.5773702269837265
42,0.13051291152719835,0.6172770843897731,0.016184288245717642,0.5146301544022246,0.44801135333179953,0.7193385025457802
43,0.3609015884284318,0.6412412281419201,0.05128962394172082,0.5196629371760002,0.46852154183965256,0.6009497446497428
44,0.27189635282633773,0.7558601737195949,0.1628076392990746,0.5531367037699184,0.49152836992460486,0.6517110655210226
45,0.31142958558878325,0.6211375198338049,0.09759795235282534,0.5706929120511839,0.47244523312337,0.6091369766220661
46,0.48220782678143576,0.7156527571033647,0.11104548139397517,0.6772003303058366,0.48243266756862035,0.5071230044325921
47,0.5199440944183156,0.5452701486921957,0.11057294743059652,0.6276919425453673,0.46691628389707773,0.6697232976220507
48,0.589648593486556,0.5013331588503753,0.0,0.6314372639122245,0.4171571426794122,0.6258391550789475
49,0.5244697843641849,0.6275334107601459,0.1326835991336877,0.565308940715714,0.4827894304952749,0.6852791992504235
50,0.49432070281302687,0.6034384047895571,0.09742075211655835,0.5409644668241227,0.42143742166241355,0.7073848864566549
51,0.30925547963439515,0.6359249505177236,0.19692852923803894,0.5427200646536532,0.4474763841691883,0.6721794672137477
52,0.06335965924216859,0.7287062633929301,0.059618035046268926,0.5436563374988774,0.309613096213319,0.6723432440293858
53,0.0,0.8016619501742103,0.004981295530616245,0.6257022190080407,0.34867127713242513,0.5498607092662283
54,0.16645221403851257,0.8246773428426545,0.07227800748178771,0.7158239425274284,0.3729267754606684,0.5605042717112071
55,0.44935220516461083,0.7374903898058331,0.06266981689308916,0.6920646679123473,0.3932584072778235,0.638775110299985
56,0.4544103292217584,0.568956210230154,0.2052569403425871,0.6970973356931427,0.33047987242045596,0.5659079413415155
57,0.6378338805572811,0.7400258452881422,0.28777318369757815,0.6704119497025305,0.2543250057693612,0.5786801197469149
58,0.49250155293282444,0.5133234096151015,0.2507580232329198,0.48607210772818377,0.118066800528696,0.6831504224090443
59,0.5611189990238704,0.8522401976019498,0.13427840126009055,0.4816245242309184,0.09398968366378006,0.5596855485139747
60,0.5233827313869911,0.6055649158392357,0.23106910809214407,0.5078417737989185,0.08364548629187518,0.604060860623034
61,0.6549826958913832,0.7147203637969672,0.12274069698759596,0.46114231956710205,0.03531304632608659,0.4553790226674834
62,0.6871284053598365,0.6451016635859519,0.2443591258121677,0.34632493359442873,0.10986265503460652,0.5289012988885056
63,0.7373103203478569,0.82322150066249,0.3286473715298286,0.4889981041107346,0.0,0.49385949558027825
64,0.5746516993522048,0.4805751394500515,0.3696593817680645,0.24906364091004068,0.0067772690148419695,0.7447190825409409
65,0.6928964415653559,0.8880473721230758,0.09149438865918487,0.5314841005530817,0.02621734397010198,0.44227929063080773
66,0.7071612387966989,0.13645657828014326,0.6087221894073636,0.8581460394750203,0.18994121296941877,0.8333060908243798
67,0.7692785517792173,0.3658253316539348,0.606320141760189,0.6870318851385718,0.28446586579580996,0.2895038366890955
68,1.0,0.0,1.0,0.6533239928368574,0.20884614353469702,0.7157360561255747
69,0.7925725441476617,0.44928271146516613,0.548631620397716,0.0,0.2225788878003375,0.5888325126259375
70,0.8104312716301357,0.39723226407995677,0.7194329592439457,0.3664559496965508,0.2712680906927807,0.8396920995866002
71,0.7042772206939392,0.3644839939149068,0.44559952746603654,0.2526918994229997,0.34742295734387546,0.928606500620357
72,0.7521297364451147,0.5410007688155334,0.5608190588698562,0.3764044523902038,0.478152388585619,0.8465694387957352
73,0.6948930694826512,0.5257062470351528,0.5162630439062806,0.5738530341415309,0.47850897628490285,0.9867364911476861
74,0.7407489573165319,0.4737866618683853,0.5444575703878716,0.6271067432688572,0.47387193437524694,0.981660375148654
75,0.7829887301446443,0.6979536420591169,0.5431777909037212,0.6573033249185304,0.5466380789052354,0.9179629381753782
76,0.7577202946135415,0.7035480018975021,0.6652884426068123,0.9446395044814491,0.5216694051784244,0.8360896531663947
77,0.679186263199929,0.5737490389805833,0.5643433746800551,0.7670880431104085,0.5839129708731807,0.9304077238304598
78,0.7409264353536248,0.5549866684114962,0.6442803701516047,0.5497425709647555,0.5796325166628087,0.8961846437194647
79,0.7503105865649126,0.6540330099946019,0.6348296908840323,0.40636702332506114,0.5585875342197152,0.8950385277719145
80,0.7138388499423198,0.7151293082295977,0.5794053947627485,0.2794943482675101,0.4945603291190566,1.0
81,0.6669180938858817,0.8185595341305023,0.5295727505414451,0.3068819963885305,0.5111468263431923,0.8568854476094376
82,0.6970671754370396,1.0,0.5305178184682023,0.42989228722532635,0.49313362786717974,0.8398558764022385
83,0.6414499955630489,0.9327858930528519,0.471726717857846,0.5656601292774083,0.5259496841614257,0.9345013398166213
84,0.6921865294169846,0.8900430209543126,0.5350068911202992,0.5794710161918166,0.585161465889101,0.9839527679247128
85,0.4672331174017214,0.6490929612484255,0.43262453238826537,0.600421357278245,0.6441946909260784,0.7599475914189957
86,0.7524846925193006,0.7111380105671241,0.6048631620397716,0.892205120338429,0.42964156715650303,0.3342065415484728
87,0.6073298429319371,0.7830140840462597,0.3898405197873596,0.7635767324583671,0.3945069022937438,0.3432126575989868
88,0.5260892714526575,0.6849164935468568,0.5784406379208505,0.7124298097222656,0.5953272817976786,0.3294579791807169
89,0.6472402165232051,0.5683018991379452,0.2663122661941327,1.0,0.3185304171059763,0.0
