frame,acc_x,acc_y,acc_z,gyr_x,gyr_y,gyr_z
0,0.04626555702093486,0.6774761701355773,0.5401771622474747,0.5226617442336625,0.505115527196769,0.4493979867418591
1,0.041460124001394774,0.6712385678090569,0.5364879261363638,0.5303886058562933,0.4940002601136558,0.4517853475127167
2,0.04885776221444085,0.6846675521799426,0.5416272095959596,0.5104370929242557,0.49172662352618807,0.45111068187784165
3,0.0493580123395033,0.6945681367357329,0.543392913510101,0.5647560474564118,0.48414808310134905,0.4507992781266375
4,0.04528021586550877,0.6889507837962774,0.5471610637626263,0.5596817429963313,0.4941265939407417,0.4488789974869457
5,0.05169251292312825,0.6890970690290757,0.5495679450757576,0.5942797678440274,0.5073891637842367,0.4452460217112715
6,0.0505858990101113,0.6708055635199738,0.542751736111111,0.5780187199604416,0.5058734060592582,0.43460658901170535
7,0.043673351827429034,0.6697113499786423,0.5437085700757577,0.5949717442042023,0.5003158345677149,0.4197633331490848
8,0.04923673958191243,0.6835206759548038,0.549084595959596,0.6081189551213616,0.5143362832736992,0.41384681485004793
9,0.03726105476980955,0.6618060959982213,0.5282216698232324,0.5904739545174261,0.5022104696739247,0.42874197983641593
10,0.042324192399230166,0.6558084014534901,0.5352844854797979,0.5280820935281911,0.5145888268278445,0.4397965835434004
11,0.042445465156820864,0.6532396327655516,0.5368035827020201,0.5151654658586093,0.5058734060592582,0.44752956423463414
12,0.036775963739445736,0.6606650711823943,0.5388158933080808,0.5037481391875266,0.49551601783863425,0.4555739996683527
13,0.04590173874816225,0.6616656621747349,0.5359256628787878,0.5272747688898669,0.48970565459289234,0.46299562759966295
14,0.036033168099201214,0.6603315408516142,0.5348800505050506,0.5361549999852698,0.4941265939407417,0.4701577609035166
15,0.04602301150575295,0.6641876195881778,0.5408183396464646,0.5222004644297864,0.4988000768427365,0.4792920839708093
16,0.04479512483514495,0.6598107654228521,0.546194365530303,0.5151654658586093,0.5154730395174196,0.4847415221386804
17,0.04540148862309947,0.6692373858243759,0.5411438604797979,0.5067466278758037,0.5054945286780269,0.4826136559952794
18,0.04996437612745781,0.6870490757698993,0.5406605113636364,0.49971162930462665,0.5162309183799089,0.4746730388090558
19,0.049479285097094,0.6861421073265497,0.5452375315656566,0.5544919769493802,0.5063787413676021,0.4590512990640653
20,0.04429487471008251,0.6902849051193981,0.5459576231060607,0.5736362785518149,0.4988000768427365,0.4524600641388725
21,0.0508284445252932,0.6789507252821843,0.542584043560606,0.5739822100775417,0.49677910790944074,0.4548993340334776
22,0.04897903497203156,0.6805715656615897,0.5470821496212122,0.5636027912923608,0.497157985290672,0.4472182114747107
23,0.049479285097094,0.6697113499786423,0.5474865845959597,0.6096182561198608,0.494505471321973,0.42988377659373755
24,0.05824124183303791,0.6728535567791504,0.563052398989899,0.5900126747135499,0.4964001064281828,0.41234170521777463
25,0.07896372428638573,0.6735206174407107,0.5592842487373738,0.5790566278463434,0.5140836156195271,0.38068300372909436
26,0.07291524550153869,0.6216654281183623,0.5583175505050506,0.601545349662782,0.5020841358468386,0.33428481363400786
27,0.1308987827246957,0.5717587580968877,0.49474234532828276,0.39972325477941856,0.5329038810545921,0.21003736845014453
28,0.1492716054997198,0.5151873328691216,0.4645576862373737,0.3156498833033481,0.6465833525274708,0.13379699024985528
29,0.1708733154456018,0.5871889244524544,0.4307627051767677,0.039095927843193407,0.750157855233844,0.0675731862554431
30,0.24513772037533935,0.5058543350165887,0.4863971748737374,0.7566601166671916,0.6652772841354497,0.00539758003540429
31,0.23476889960131603,0.401383273161341,0.5192254577020202,0.2848575584735321,0.7908299015539308,0.02652066707201335
32,0.23143389876756587,0.39343120790642433,0.42201309974747475,0.25821709180476543,0.5958064615409053,0.025586455818400862
33,0.19493079873269964,0.371523531442548,0.47066366792929293,0.0,0.9147404274203476,0.02600167781710003
34,0.22984219382418491,0.3377608997126959,0.36068694760101006,0.07565453349326476,0.7944928379392644,0.0
35,0.4252429244925494,0.2650980988771146,0.3879715119949495,0.17195255627874215,0.7569786408962206,0.0061760639177743425
36,0.40908332954355975,0.21447755691958414,0.3353160511363636,0.2017068599139352,0.7977768969433667,0.05293751589653184
37,0.533312110600755,0.17757271838922406,0.28305516098484845,0.2707876746398992,0.6864973958850417,0.09139508880539464
38,0.5293707459790502,0.14080831368235044,0.25190380366161613,0.2576404637227399,0.6719717359707401,0.12445508167885329
39,0.6080767656555551,0.13052738752128457,0.17740885416666669,0.28381965058763037,0.6527724690544173,0.15990243532316953
40,0.6098049024512258,0.1045237245390552,0.2129794034090909,0.3185330237134758,0.632689113548546,0.1881876556636322
41,0.7269998635681478,0.07490389060205155,0.162405303030303,0.361665348130848,0.6090691554844269,0.22316792917678252
42,0.8703442630406112,0.09938033575386632,0.08405342487373738,0.3129973261407979,0.6191738760508789,0.2637533682290463
43,0.8651598526535996,0.0683795692192465,0.11744397095959595,0.3921116281262159,0.6263736631945134,0.3099439728204236
44,0.8164385222914488,0.055524022960930154,0.16529553345959597,0.23884209364603215,0.771504300810522,0.341135594177938
45,0.9751997210726575,0.06533683637704146,0.1225832544191919,0.4132165105310258,0.5340406372983125,0.3186111647652698
46,0.9557202843846166,0.08509704562343844,0.031388099747474765,0.361665348130848,0.45825436434973565,0.3441976205836707
47,1.0,0.06705129930543777,0.0,0.5429593020001482,0.4399394342230146,0.37471457630630994
48,0.9315415283399275,0.021427860900297892,0.06807331123737373,0.6737400013551723,0.42655053055243375,0.4324787228683044
49,0.9504146012400141,0.0,0.08718039772727272,0.7151424415264679,0.38259442522824477,0.506435558545231
50,0.9126684554398411,0.010526685352167041,0.07394255050505051,0.6822741876161273,0.35215355740172266,0.6026572780160884
51,0.8945230190853003,0.0336690091808613,0.14008246527777776,0.6858494176951511,0.3498800449142816,0.6949865270838148
52,0.8847757211939303,0.07447673772228044,0.21578085542929293,0.7520469787022662,0.2625995034013335,0.7510898876335741
53,0.8469083026361666,0.09176180082972994,0.18632615214646464,0.7460500013257121,0.24213727051423078,0.7832675783771678
54,0.7313202055573242,0.14014125302079009,0.22702612058080807,0.6896551177130311,0.26335738226382277,0.8156009964920039
55,0.5920384434641563,0.16147549137209702,0.29485282512626265,0.7948333715939115,0.25173677987236565,0.8143554324784679
56,0.4694165264450409,0.20214278609002984,0.31251972853535354,0.8289701166377313,0.2593154443972313,0.8324683512418111
57,0.3274212864007763,0.24900087185998748,0.304006865530303,0.7821473271719073,0.36945818921183576,0.8384886877883428
58,0.30866948625828083,0.2982872924943973,0.31644570707070707,0.910160234394953,0.29089306846747387,0.8656321623627645
59,0.15113617414768007,0.3344314478142061,0.4236209753787879,0.9303424438832893,0.27851458721352745,0.8900249123000963
60,0.1734655206391076,0.4036653227929948,0.4542791193181818,0.914658024081729,0.1903499571110308,0.9135354110988436
61,0.20355632361635387,0.4477615433677201,0.3728890467171717,0.8220504663447038,0.15296196979504634,0.9679779856363682
62,0.22280837388391195,0.5056202786441115,0.3514539930555556,0.9986160472796503,0.2975875203027643,1.0
63,0.3997150090196615,0.4549529254120856,0.5100714172979799,1.0,0.3105974224920874,0.9940315725772156
64,0.27042309033304535,0.4259065295876512,0.5787957702020201,0.8643754661237517,0.2350638171976824,0.8851463725108861
65,0.048236239331787376,0.5080486135085636,0.46833570075757575,0.28624151119388186,0.5316407909837856,0.7865372922691711
66,0.04638682977852573,0.5672356186987636,0.5757378472222222,0.21785267282809276,0.649614743877401,0.5477475723561174
67,0.09289493231464249,0.6882837231347171,0.6022332702020201,0.7794948833180781,0.4548439715185475,0.4263026589505301
68,0.0,0.5828588815616241,0.5088679766414141,0.7274824411140242,0.5181255534861187,0.4806933753555877
69,0.05663437779495817,0.6474759945932979,0.5752544981060606,0.37319802308008,0.5150941621361884,0.4820427576166186
70,0.036775963739445736,0.6954751051790824,0.5027718592171717,0.43247604710288867,0.5027156808822419,0.4858314607635353
71,0.04453742022526442,0.6637604667084067,0.5411438604797979,0.7388997677851068,0.4792219325451823,0.45261574051883424
72,0.0324556217502693,0.622472922603409,0.5137705176767676,0.5638334878486594,0.5035998935718171,0.4806933753555877
73,0.043552079069838164,0.6611916980204683,0.5457208806818182,0.510552441202405,0.5140836156195271,0.48640230815091545
74,0.04280928342959364,0.6341874440458984,0.5432252209595959,0.5390381403953975,0.4875584759325372,0.49901393061392074
75,0.03430503130353078,0.6636200328849203,0.5311908143939393,0.4796447680944397,0.5294934882234039,0.4906061823052505
76,0.04590173874816225,0.6830935230750326,0.5340021306818182,0.4834505814210409,0.5115574354779142,0.49937719249759166
77,0.046508102536116765,0.6835206759548038,0.5358467487373738,0.5569138375556317,0.510799556615425,0.48256174687153197
78,0.03948944169054243,0.6784767611279177,0.5281328914141414,0.5976243013667525,0.5082733764738119,0.480537698975626
79,0.04465869298285529,0.6710922825762584,0.5336766098484849,0.5529926759508811,0.5082733764738119,0.4842744420075145
80,0.045659193232980344,0.6728535567791504,0.5405815972222222,0.5386922088696707,0.5046103159884517,0.48100477910679185
81,0.043794624585019905,0.6862825411500361,0.5274917140151516,0.50986046484223,0.5009473796031181,0.48256174687153197
82,0.04590173874816225,0.702906395005237,0.5283005839646464,0.4587705822459284,0.5157257071715916,0.48832263978188784
83,0.057240741582912855,0.7202850806616774,0.5239603061868687,0.4903702317140687,0.5124416481674894,0.4848453403861753
84,0.05094971728288407,0.7065225659600115,0.5318319917929293,0.5088225569563283,0.5099153439258497,0.47643764306878583
85,0.05293555868843538,0.7076167795013429,0.5246014835858586,0.5392688369516964,0.5013262569843495,0.4697944990198456
86,0.9496718055997696,1.0,1.0,0.5219697678734876,0.5306302444671244,0.4628918603434487
87,0.5310988827747207,0.7652824182704404,0.4574159564393939,0.6778918595162217,0.0,0.2608470182032753
88,0.1344763290736278,0.722239451371863,0.5200244633838383,0.31899441682607316,1.0,0.5034253902719651
89,0.14669455940091275,0.6833334308568219,0.5392104640151515,0.5468803502961777,0.45282300258525177,0.4571310184243735
