frame,acc_x,acc_y,acc_z,gyr_x,gyr_y,gyr_z
0,0.08640808994744195,0.8281444582814446,0.8043198304670307,0.5397783883635587,0.5338773226922252,0.39748370119015725
1,0.07862417670148372,0.8320766821389486,0.803521069361806,0.5615978702275449,0.5314101643715561,0.39641192461999886
2,0.07298250282748994,0.8360692856334201,0.8020702583747655,0.5631643514647848,0.4735243387377979,0.39701772332039764
3,0.08219014037655496,0.8395109249405638,0.8170674056565328,0.5702136819366981,0.488897321386949,0.39655169966778586
4,0.07700086487924938,0.8384618287482547,0.8118836090960958,0.5513035522702215,0.5327385625180641,0.3931034268052831
5,0.0882576009580201,0.8406732329521868,0.8201157388540222,0.5144903087371924,0.5479217207268523,0.39804284716415744
6,0.08111236777326845,0.8420242273293332,0.8166598744803977,0.5154973245371163,0.5302714041973949,0.3964585315635452
7,0.08684718248952158,0.847798030114344,0.8309886706333035,0.5411211493876058,0.5526665858638596,0.38583411709761073
8,0.08457188477147223,0.8329370919657346,0.8029994294563533,0.5741300499341317,0.548301369607578,0.3803821119254303
9,0.0827356795955025,0.8184988112758972,0.8150623522699486,0.5402260486623895,0.5422281063240627,0.3849953294623321
10,0.08511742399041977,0.8066493075210385,0.8145407123644958,0.5376524416890031,0.5403302348564663,0.38984158171696587
11,0.07829153083627172,0.7997056492697838,0.7945064797457004,0.5235537807451764,0.5126209011999217,0.39613232874157267
12,0.08630164327057405,0.8110117362919356,0.8079061048170184,0.5138189282251687,0.5416588194709901,0.3996272085476218
13,0.0801277360122413,0.8253820898901845,0.804988181595892,0.524336966395685,0.5243879653542426,0.4020037048399662
14,0.08349411216818586,0.8229895467753501,0.7958268807563779,0.5419044449743371,0.5236288540608072,0.40135134497887326
15,0.0872862750316015,0.8335484357900298,0.8056565327247533,0.5631643514647848,0.5114823274937765,0.39916123067786224
16,0.07970194930477023,0.8321370617759161,0.799021925177276,0.5865503145660109,0.5095842695581639,0.39622554262866544
17,0.08067327523118883,0.8434431487980678,0.8235553019806013,0.5969564376618194,0.5054090642102612,0.3954333619369333
18,0.08739272170846912,0.8318955432280464,0.8096340370038307,0.6262728003603271,0.49648880725733513,0.39673812744197146
19,0.08088616858492466,0.8304162421223442,0.8278099274594505,0.5791652388699744,0.4860505141855543,0.403122088353671
20,0.08446543809460447,0.8402430280387939,0.8312494905860297,0.5594718136167666,0.5082558714116561,0.39990680442604803
21,0.09291464307098657,0.84110343786558,0.830727850680577,0.5508560019076134,0.5111026786130508,0.3941752033754415
22,0.08836404763488771,0.8501981206837994,0.8320482516912543,0.5629405213153694,0.501802959247415,0.38056849391676373
23,0.09691969928813787,0.843745046982905,0.8551308175075393,0.632538835245509,0.5103435673196154,0.35750231466655047
24,0.09550928081963936,0.8395713045775312,0.844127475751895,0.6418261374029085,0.5164168306031307,0.32688722983023855
25,0.10764420198256948,0.8450960413600512,0.8526204254625477,0.7774421424898775,0.48756873677242507,0.27190120023867514
26,0.11717117956223794,0.8008151250990603,0.7674464096503382,0.8335011509772836,0.3995066056294694,0.21509786611161977
27,0.150196261060475,0.6560398505603985,0.7833564267666476,0.5172876359237717,0.5720251358885666,0.1746038947747069
28,0.2138646796620317,0.6478131250235858,0.8060477626538429,0.1597851538387036,0.846270546444521,0.0910531196000556
29,0.15896480606746055,0.6358353145401714,0.6642432146059172,0.40707173547409947,0.6158663770196817,0.04035415050627365
30,0.34195994943782854,0.5083889958111627,0.8056565327247533,0.3388161825680069,0.8214082064573873,0.014026080384890931
31,0.23616525846583733,0.44954149213177846,0.7333442008313635,0.09399129283128985,0.5756310543833969,0.01579682375968872
32,0.28803140176967595,0.4578361447601796,0.6160730295867634,0.0,0.8288100543554267,0.015004643067956533
33,0.3035193932539418,0.4039095814936412,0.6960795500855815,0.19268213931052186,0.8449421482980131,0.0
34,0.3344953762224736,0.31497037624061275,0.6922324557828673,0.003580622773310572,0.8977034599140381,0.0028890811056503807
35,0.4364979043310491,0.30968715800596236,0.4571521721411687,0.12968560548968733,0.8115392002386791,0.02837836359175449
36,0.3866808595569158,0.240341144948866,0.5287961529056973,0.2952892438509648,0.8857467577873704,0.05246971246857974
37,0.5514869270174971,0.21479301105702098,0.42810334990626775,0.2583640852432279,0.8988422200881993,0.08466915868835607
38,0.4722240702548068,0.14802822748028222,0.37662401173689786,0.3882734109461079,0.9455304548887252,0.11644918819906692
39,0.6351939325394186,0.1514698667874259,0.3250305648382101,0.3385923524185915,0.8494970025266415,0.13527491389504526
40,0.6341161599361319,0.08795803615230754,0.35924688238650254,0.28577822148037263,1.0,0.15559178708739518
41,0.7344820703878651,0.058409751311370134,0.2683837313554487,0.44858453265507087,0.8948566527126434,0.16803355187167396
42,0.7546271039850975,0.06302124608475786,0.2174423343385769,0.14613404325748505,0.9037767231975533,0.1817334752174445
43,0.8918235646330916,0.038205215291142895,0.11370119814165779,0.33031217599733875,0.8041373523406397,0.2029356972057672
44,0.9733617191138315,0.025857579531302955,0.0453826717743907,0.39666550244206833,0.6984247182002107,0.2552190276830136
45,0.984086221808263,0.04029586022114038,0.024419268074007648,0.44668230619370786,0.6310495352284698,0.305452018907036
46,0.940123744261859,0.02788784482433294,0.0492297660771049,0.48237661885210537,0.5824634289603475,0.3288443551963697
47,1.0,0.037163666553454815,0.0,0.5139308432998766,0.5287529951425082,0.3591798899371076
48,0.9829951433703679,0.03046907430469059,0.003847094302714159,0.5727872889100847,0.5016131348070522,0.39534014804984047
49,0.9746656909054621,0.006822898977319852,0.051088108240280344,0.7383909272713621,0.3571835870852252,0.43126746301054575
50,0.9434768145831948,0.0,0.051088108240280344,0.7707284473058645,0.2630480061907381,0.4804287234472619
51,0.9303705674938461,0.007245556436091801,0.0453826717743907,0.7301107508501095,0.3518694350951453,0.562534958069088
52,0.8234981039185684,0.008664477904826549,0.08623359687016052,0.7696095164312328,0.3575630494979349,0.6394687833971598
53,0.7295056882442952,0.036054190724178176,0.2642595158529627,0.8028421371909515,0.3144809196602552,0.6955265437760295
54,0.700166322932606,0.07530095475300941,0.32038470943027136,0.8672932371743182,0.11387359333190375,0.7217148388496252
55,0.6356330250814982,0.1555228499188648,0.3693373543076045,0.8432360034972912,0.12564047101820858,0.7393755740883523
56,0.5623178763887966,0.2150345296048907,0.39559866329774224,0.8291373425534645,0.27082931650148706,0.7350885593734232
57,0.5355731488257602,0.248635797577267,0.4571521721411687,1.0,0.3017651062401521,0.7314538587367347
58,0.45219878916905065,0.25871164949620734,0.5768196267014426,0.8990712917715047,0.3490226278937505,0.723765132319997
59,0.28501097731355207,0.3141703460507943,0.6576086070584399,0.8819514734916835,0.19795034356731964,0.754007453173642
60,0.2095269775796687,0.3742405373787689,0.6009617735756785,0.7470068489167381,0.07117092590693376,0.7753961029361505
61,0.1923092275963009,0.48989773198988634,0.6382264243214605,0.723956631039635,0.0,0.8037278595843584
62,0.1520324662364446,0.5510773991471376,0.6282826636237672,0.7943381306202834,0.11444288018497625,0.8475768898966813
63,0.1393653116891758,0.6739197705573795,0.7085500040753117,0.8969452351607264,0.2026950222363109,0.9007455691699006
64,0.2986494577872398,0.6681459677723687,0.6976607710489852,0.9324158276059311,0.16416774662725975,1.0
65,0.4710398509746525,0.5478772783878636,0.7837639579427825,0.8358509278012547,0.4329095536888035,0.9513979313201361
66,0.07146563768212352,0.22001584965470392,0.769973102942375,0.40248398696464227,0.7995824981120112,0.6005125665001652
67,0.10503625839930812,1.0,1.0,0.15005030131869604,0.35167961065478237,0.26640258812294837
68,0.0,0.9726102871806483,0.6297497758578531,0.750923106977949,0.42835451299215893,0.4221808029845292
69,0.1084026345552524,0.8287558021057398,0.8400032602494092,0.4495915484549949,0.619282657542165,0.4854613119103769
70,0.0967068059344022,0.8290048681082304,0.8815388377210857,0.35403377438646527,0.5503890655155375,0.43890958248373707
71,0.10699221608675388,0.8515491150609457,0.8747738201972449,0.6112789287550614,0.5021826081281408,0.3879776244550753
72,0.07862417670148372,0.8216385523982036,0.8691987937077185,0.7114244513330482,0.4843424671583206,0.37777258091535393
73,0.08077972190805645,0.7956526661383447,0.7972939929904638,0.5765917418328106,0.5479217207268523,0.4008853671091136
74,0.08901603353070331,0.8567040265670404,0.8349661749123808,0.4934541224599374,0.5471626094334169,0.4065237542726274
75,0.09085223870667289,0.828635042831805,0.8331078327492051,0.5930401796006084,0.5319794512246286,0.39790307211637044
76,0.07915641008582269,0.8497679157704064,0.8275328062596787,0.5547722599688244,0.5276144214363631,0.39678473438551787
77,0.08739272170846912,0.8439337333484282,0.8388132692150948,0.586997864928619,0.5424179307644256,0.3957129578153595
78,0.08792495509280825,0.8337975017925204,0.8443882957046213,0.6101599978804297,0.5287529951425082,0.39198508907443047
79,0.08425254474086893,0.7918487490093966,0.8191865677724344,0.6409309267414696,0.545644386846546,0.39068032356939225
80,0.07862417670148372,0.796271557417261,0.8252832341674138,0.5129238274999526,0.558739849147375,0.4067101362639608
81,0.08792495509280825,0.8315860975885883,0.8112152579672344,0.5154973245371163,0.549629954222102,0.40773530589057283
82,0.08435899141773685,0.84110343786558,0.7956964707800146,0.5523105680701456,0.5264756612622019,0.40372784127121764
83,0.07915641008582269,0.8474357522925393,0.7984839840247778,0.5937115601126319,0.5334978602795155,0.399533994660529
84,0.08608874991683867,0.8340993999773576,0.8019398483984024,0.5922568840138771,0.5395711235630308,0.4050326067762558
85,0.0876056150622048,0.8312162723121627,0.799021925177276,0.5998656799231062,0.5230593807397186,0.4034482911756437
86,0.07807863748253618,0.8372995207366315,0.7919797864536635,0.5723397385474766,0.5264756612622019,0.40852748658230503
87,0.0885769409886234,0.8592248764104305,0.8010106773168146,0.5684233705500429,0.4989561520460203,0.40978564514379684
88,0.0827356795955025,0.8367410090946829,0.8278099274594505,0.5681996503368502,0.5078762225309303,0.4134669069411794
89,0.08912248020757094,0.839382618212008,0.8189094465726626,0.5430233758489689,0.5101537428792526,0.4128145470800864
90,0.09951433703679068,0.8585456054945471,0.8198386176542505,0.4956920941454235,0.5403302348564663,0.41533086420306997
91,0.044508016765351585,0.8870523415977961,0.8284619773412666,0.5842005377420398,0.6025810902784899,0.4061509902899606
92,0.09691969928813787,0.9255594550737763,0.8652212894286412,0.42374400339131263,0.4860505141855543,0.4147250655026712
93,0.09854301111037178,0.8443639382618212,0.785622300105958,0.5510797221208061,0.5452647379658203,0.39883502785588965
