frame,acc_x,acc_y,acc_z,gyr_x,gyr_y,gyr_z
0,0.08163865160282874,0.8451301097540652,0.862471899009363,0.5935376938306707,0.5244305997491548,0.4489668607591251
1,0.0853678699366217,0.8454554833384917,0.9051112922750068,0.5753929999786455,0.49478175029491317,0.4658265295189771
2,0.0832736290989253,0.8437730638287742,0.8787519454531979,0.5273627093127191,0.4328746934930812,0.47428475243771934
3,0.07864425461559642,0.8672158337896501,0.9262086513994912,0.5245487707406062,0.4613375982907855,0.467359231749251
4,0.08895012400110229,0.874191526002111,0.8934509251710764,0.524936870612784,0.4501896253030113,0.46667801836398237
5,0.08222650868007701,0.8934996706584452,0.8803824205143409,0.5219289297709877,0.45137556995954875,0.461796082058159
6,0.08446771378708558,0.9048639382901221,0.9242076138244523,0.568697776686323,0.4407020680507116,0.4468097222212152
7,0.08626802608615762,0.8754850843987335,0.915956421848366,0.6015913143420205,0.4316887488365438,0.4346049372298173
8,0.08850923119316619,0.8643747668817306,0.9235900096346253,0.5880069608205027,0.4485294426083419,0.4317665853066388
9,0.0847616423257093,0.8673428088469871,0.9338422391857506,0.5567630621203847,0.45635658412516716,0.43352634007428203
10,0.08566179847524584,0.8706362243966702,0.9364608809506164,0.550650131635545,0.43738123657976263,0.4271684786158172
11,0.0898502801506382,0.8863970033886469,0.9229971096123917,0.5928585428875622,0.3923148735497288,0.4157016283141597
12,0.07265546064113139,0.8683824171289354,0.8948590627238815,0.6718415858498653,0.4677417926524099,0.4077543433209493
13,0.07893818315422056,0.8411224595068607,0.9193655969762099,0.6447700229408876,0.44710626241233586,0.41712083216232937
14,0.09493891797556732,0.8344086533501577,0.9334469725042615,0.6114883854130122,0.4663186124564039,0.4306880439242643
15,0.07998530357306866,0.8398368370513218,0.9433039353738977,0.5850960687799536,0.4399903614323061,0.4350590423045559
16,0.08656195462478175,0.8511376171543303,0.9354480100793005,0.5928585428875622,0.4860056666202139,0.44028158530301365
17,0.08626802608615762,0.8452570848114024,0.9306306973986511,0.5679215769419674,0.4691649728484158,0.444311976990671
18,0.07564985762836411,0.8462252696235983,0.9418957978210925,0.571123615386258,0.46157483383025405,0.44783154229911804
19,0.0771378708551481,0.8244014316437716,0.9143506509548162,0.5566660133191377,0.49857681980399404,0.44709355183621696
20,0.08522090566730932,0.8503598949281401,0.9459225771387634,0.5156219016836537,0.48007594333752657,0.44663944676147843
21,0.08193258014145287,0.8975708084343181,0.9042960547444354,0.5355132832925055,0.4679790281918783,0.4347752126895541
22,0.08163865160282874,0.8939520193002087,0.9296178265273352,0.6145933750560557,0.4734345134364337,0.4212080009276192
23,0.05187838706714398,0.8686363672436096,0.9449097062674473,0.5718998151306136,0.4589657089777106,0.4157584053917922
24,0.15264076421420025,0.8593989318223303,0.9561748066898886,0.5621967463293054,0.6072106553713342,0.38340143886946465
25,0.09359786901809489,0.7607869279178472,0.8043676968304553,0.6702890910283436,0.579221988611762,0.322377402366154
26,0.132616882520437,0.7833884881238642,0.8389535314607575,0.8613429075439522,0.5827798225813744,0.18165307298124436
27,0.1192982456140349,0.680316485330413,0.6743002544529263,0.8684261353756417,0.557163045134877,0.11007039632575338
28,0.17341783778818765,0.5936401368156243,0.662046987326762,0.6128468779648504,0.7492884099019971,0.08197092980161316
29,0.2474327179204554,0.6059170376719124,0.7945354381284123,0.5511352803089699,0.5687854892015882,0.05563127381827686
30,0.40156149536144026,0.5550238475029562,0.9442921020776206,0.4563361427277081,0.7208252720634878,0.0075499569961043345
31,0.21901350234224307,0.5330650985247086,0.7876923837051311,0.3187463964197572,0.4712996266220223,0.0
32,0.2910811059061264,0.49902784721726223,0.7504879073099633,0.5910149016622991,0.7220112167200253,0.0025545223081766665
33,0.17341783778818765,0.3363489909450913,0.6654561624546061,0.2750824438146547,0.8455880947842205,0.016973222915116926
34,0.4033618076605125,0.4279218151084447,0.5991007682996122,0.0,1.0,0.03672796490261914
35,0.2611738771011299,0.2670444174622448,0.6174065564860792,0.2917717869792159,0.94093930359018,0.02304725475857998
36,0.4958941857260954,0.2632351657421295,0.4899330517058228,0.15913057620676085,0.7950662465096313,0.04632156205452933
37,0.3840727473133095,0.19613678388051647,0.508634106573779,0.2597515932019317,0.46228654044865947,0.05733425150828752
38,0.7575089556351612,0.17036878318215365,0.10756194570023964,0.36483599705917347,0.5106735019088373,0.0906562052577247
39,0.6902360613575824,0.121475450166258,0.10674670816966822,0.3175820014704133,0.6966319078538015,0.15338327522420667
40,1.0,0.07710560356799913,0.13028977988586676,0.5012613484177805,0.8133301204774354,0.19067895512999017
41,0.8715899696886195,0.033386504138593315,0.1477803305417624,0.5248399171443476,0.5917931417955421,0.25386013017121073
42,0.7443556535317352,0.03319604155258754,0.2816769188962178,0.489811782525267,0.6252370607588648,0.3132379660621432
43,0.718489942132819,0.0,0.13550235924800516,0.5213467322963158,0.48695437573728284,0.35081741980976777
44,0.8143290162579223,0.025633089699942064,0.07238321104770375,0.5225111272456597,0.5033205984301439,0.39793369363166986
45,0.7663451823275467,0.0037457641914466883,0.0,0.5928585428875622,0.34748574605916344,0.46923254067215914
46,0.7765040874437404,0.01634010269107753,0.10133649546678525,0.5877159097495721,0.3534154693418508,0.5156676011087927
47,0.6543584091117846,0.012332452443872969,0.09711208280836978,0.6614593661054488,0.30099620283312367,0.5771457984600027
48,0.700101037935152,0.05812283249609153,0.11640603769855976,0.6862021391157387,0.3688329829176429,0.62488645281638
49,0.6083218517497935,0.07562158258537088,0.21450628721065246,0.7446147448588922,0.3785577757094112,0.6846048953999468
50,0.6011389730871681,0.08421620677888088,0.30559055312631245,0.7499514755993765,0.4212522494263701,0.7246820943781156
51,0.5154771746119223,0.1604885365331048,0.33293806665184417,0.8089461834843914,0.37333952600432435,0.7581743793604503
52,0.4911178469734545,0.17578903094223428,0.3737493515156006,0.8774499579010309,0.3033680921461986,0.7823001755014048
53,0.4559750160742169,0.26039409883421033,0.4628078756886287,0.829322713766668,0.24264698000090418,0.7862738458845906
54,0.3535776614310645,0.3302779960161576,0.5303490698880902,0.8494080976452034,0.33586330199245223,0.8365122454715122
55,0.1554881969321206,0.31696942281900503,0.5148842609748264,0.7696487596057341,0.12998083938501462,0.8778950941425856
56,0.2224671626710754,0.44936472791626003,0.5667383087526866,0.6818358010549148,0.0,0.9088329125899043
57,0.16610636538991452,0.537969510114357,0.5906766471503743,0.7013389874587781,0.05550286244020746,0.9411898233390711
58,0.17850647561311656,0.5939020228713823,0.5100422441265842,0.7812924231007417,0.03629027935533456,0.9753633217066743
59,0.38602002388169393,0.6667539620185859,0.6234343733787892,0.7009508875866003,0.1285578922298136,1.0
60,0.3861669881510057,0.6844431746938711,0.6200251982509449,0.8496991487161341,0.017077696270461573,0.9776907357043211
61,0.3294938917975567,0.6115991714877509,0.7999456508312952,1.0,0.38330155433556107,0.9183128998133886
62,0.0,0.5700703917974113,0.673904987771437,0.6177954135003462,0.46869073481028384,0.813805653178727
63,0.12258657113989156,0.6023617360664715,0.9955779540008399,0.19444985722958275,0.6323529617388945,0.656164877956333
64,0.10899237622852945,1.0,0.9624002569233431,0.5968367810762083,0.12167922678925236,0.3939600232484843
65,0.036630844126021585,0.9293463165329461,0.6137997480174906,0.6652435066916007,0.4848197219636764,0.4430631601485596
66,0.09927436392027165,0.8596608178780881,1.0,0.4390646020884749,0.5730550297896061,0.5087988017247961
67,0.11975750895563493,0.9556936409304099,0.873341732750315,0.4872889903568955,0.6038898239003854,0.44692327637648016
68,0.06429686782401016,0.8258219650977312,0.7470787321821191,0.850863543665478,0.49715363960798803,0.40849227801068955
69,0.08446771378708558,0.84958217270195,0.8526149361397268,0.5610323513799615,0.4653699033393349,0.44766121106622053
70,0.07370258105997969,0.8661206739201169,0.8260826601447664,0.5660780310495152,0.4501896253030113,0.447604433988588
71,0.06758519334986661,0.8654699267512639,0.8431779441191729,0.5593829030900034,0.4176944154567576,0.44408492445330167
72,0.07474970147882778,0.8885317715401281,0.8140270263593468,0.5496797389558846,0.43856718123630006,0.4458446792209449
73,0.08207954441076525,0.8689617408280361,0.8407569356950518,0.6088686397762043,0.41389934594767674,0.4328451266890134
74,0.06578488105079434,0.8462252696235983,0.839151164801502,0.6314768158231111,0.4046487911940405,0.43647819037956476
75,0.07370258105997969,0.8382813925989414,0.8281084018873984,0.5835435739584318,0.46062612471318504,0.43994097861037934
76,0.07879121888490839,0.8377655564285091,0.8538254403517874,0.5341548860734779,0.47936423671912104,0.45458673175468883
77,0.06712593000826658,0.8460348070375925,0.8654858074557178,0.4780709748962016,0.46157483383025405,0.4632720072108004
78,0.082832736290989,0.874453412057869,0.8363348896958918,0.4449835303036312,0.4992882933815946,0.4675295072089877
79,0.07789106273537226,0.8938885317715402,0.8496010276933719,0.4901998823974448,0.5123339176443117,0.46508853905607606
80,0.07684394231652437,0.9073875675546984,0.822871118357667,0.5295943550773492,0.5080643770562938,0.4654291457487103
81,0.07280242491044377,0.8958883889246007,0.8214629808048619,0.598292227096483,0.4411763060888435,0.4575953591376041
82,0.0777440984660605,0.8532009618360594,0.8546406778823588,0.6547641428131263,0.38282731629742905,0.4582765725228726
83,0.07326168825204378,0.852685125665627,0.8731440994095704,0.6113914319445759,0.4520872765779543,0.45856040213787447
84,0.07745016992743636,0.8796831972319439,0.853034906988809,0.5751989023761512,0.4501896253030113,0.4701975278992687
85,0.07745016992743636,0.8812307057432406,0.8574569529879691,0.5591888054875092,0.4383301787376366,0.4780880915880074
86,0.0919445209883346,0.8776754041377998,0.8540230736925319,0.5433728062013612,0.3972958877153472,0.4789963575106453
87,0.09464498943694317,0.8924679983175805,0.8968601002989204,0.5302736013532683,0.4307400397194748,0.48626248489174795
88,0.08297970056030117,0.9055781729876439,0.8666963116677785,0.511934809898749,0.402988608499371,0.48637603904701293
